 Frequency [Hz] - Resonance Curve	Volatge [V] - Resonance Curve	
1002.50	0.63	
1005.00	0.63	
1007.50	0.63	
1010.00	0.62	
1012.50	0.62	
1015.00	0.62	
1017.50	0.62	
1020.00	0.61	
1022.50	0.61	
1025.00	0.61	
1027.50	0.61	
1030.00	0.60	
1032.50	0.60	
1035.00	0.60	
1037.50	0.60	
1040.00	0.59	
1042.50	0.59	
1045.00	0.59	
1047.50	0.59	
1050.00	0.58	
1052.50	0.58	
1055.00	0.58	
1057.50	0.58	
1060.00	0.58	
1062.50	0.57	
1065.00	0.57	
1067.50	0.57	
1070.00	0.57	
1072.50	0.56	
1075.00	0.56	
1077.50	0.56	
1080.00	0.56	
1082.50	0.55	
1085.00	0.55	
1087.50	0.55	
1090.00	0.55	
1092.50	0.55	
1095.00	0.54	
1097.50	0.54	
1100.00	0.54	
1102.50	0.54	
1105.00	0.53	
1107.50	0.53	
1110.00	0.53	
1112.50	0.53	
1115.00	0.53	
1117.50	0.52	
1120.00	0.52	
1122.50	0.52	
1125.00	0.52	
1127.50	0.52	
1130.00	0.51	
1132.50	0.51	
1135.00	0.51	
1137.50	0.51	
1140.00	0.50	
1142.50	0.50	
1145.00	0.50	
1147.50	0.50	
1150.00	0.50	
1152.50	0.49	
1155.00	0.49	
1157.50	0.49	
1160.00	0.49	
1162.50	0.49	
1165.00	0.48	
1167.50	0.48	
1170.00	0.48	
1172.50	0.48	
1175.00	0.48	
1177.50	0.47	
1180.00	0.47	
1182.50	0.47	
1185.00	0.47	
1187.50	0.46	
1190.00	0.46	
1192.50	0.46	
1195.00	0.46	
1197.50	0.46	
1200.00	0.45	
1202.50	0.45	
1205.00	0.45	
1207.50	0.45	
1210.00	0.45	
1212.50	0.44	
1215.00	0.44	
1217.50	0.44	
1220.00	0.44	
1222.50	0.44	
1225.00	0.43	
1227.50	0.43	
1230.00	0.43	
1232.50	0.43	
1235.00	0.43	
1237.50	0.42	
1240.00	0.42	
1242.50	0.42	
1245.00	0.42	
1247.50	0.42	
1250.00	0.42	
1252.50	0.41	
1255.00	0.41	
1257.50	0.41	
1260.00	0.41	
1262.50	0.41	
1265.00	0.40	
1267.50	0.40	
1270.00	0.40	
1272.50	0.40	
1275.00	0.40	
1277.50	0.39	
1280.00	0.39	
1282.50	0.39	
1285.00	0.39	
1287.50	0.39	
1290.00	0.38	
1292.50	0.38	
1295.00	0.38	
1297.50	0.38	
1300.00	0.38	
1302.50	0.38	
1305.00	0.37	
1307.50	0.37	
1310.00	0.37	
1312.50	0.37	
1315.00	0.37	
1317.50	0.36	
1320.00	0.36	
1322.50	0.36	
1325.00	0.36	
1327.50	0.36	
1330.00	0.36	
1332.50	0.35	
1335.00	0.35	
1337.50	0.35	
1340.00	0.35	
1342.50	0.35	
1345.00	0.34	
1347.50	0.34	
1350.00	0.34	
1352.50	0.34	
1355.00	0.34	
1357.50	0.34	
1360.00	0.33	
1362.50	0.33	
1365.00	0.33	
1367.50	0.33	
1370.00	0.33	
1372.50	0.33	
1375.00	0.32	
1377.50	0.32	
1380.00	0.32	
1382.50	0.32	
1385.00	0.32	
1387.50	0.31	
1390.00	0.31	
1392.50	0.31	
1395.00	0.31	
1397.50	0.31	
1400.00	0.31	
1402.50	0.30	
1405.00	0.30	
1407.50	0.30	
1410.00	0.30	
1412.50	0.30	
1415.00	0.30	
1417.50	0.29	
1420.00	0.29	
1422.50	0.29	
1425.00	0.29	
1427.50	0.29	
1430.00	0.29	
1432.50	0.28	
1435.00	0.28	
1437.50	0.28	
1440.00	0.28	
1442.50	0.28	
1445.00	0.28	
1447.50	0.27	
1450.00	0.27	
1452.50	0.27	
1455.00	0.27	
1457.50	0.27	
1460.00	0.27	
1462.50	0.26	
1465.00	0.26	
1467.50	0.26	
1470.00	0.26	
1472.50	0.26	
1475.00	0.26	
1477.50	0.26	
1480.00	0.25	
1482.50	0.25	
1485.00	0.25	
1487.50	0.25	
1490.00	0.25	
1492.50	0.25	
1495.00	0.24	
1497.50	0.24	
1500.00	0.24	
1502.50	0.24	
1505.00	0.24	
1507.50	0.24	
1510.00	0.23	
1512.50	0.23	
1515.00	0.23	
1517.50	0.23	
1520.00	0.23	
1522.50	0.23	
1525.00	0.23	
1527.50	0.22	
1530.00	0.22	
1532.50	0.22	
1535.00	0.22	
1537.50	0.22	
1540.00	0.22	
1542.50	0.21	
1545.00	0.21	
1547.50	0.21	
1550.00	0.21	
1552.50	0.21	
1555.00	0.21	
1557.50	0.21	
1560.00	0.20	
1562.50	0.20	
1565.00	0.20	
1567.50	0.20	
1570.00	0.20	
1572.50	0.20	
1575.00	0.19	
1577.50	0.19	
1580.00	0.19	
1582.50	0.19	
1585.00	0.19	
1587.50	0.19	
1590.00	0.19	
1592.50	0.18	
1595.00	0.18	
1597.50	0.18	
1600.00	0.18	
1602.50	0.18	
1605.00	0.18	
1607.50	0.18	
1610.00	0.17	
1612.50	0.17	
1615.00	0.17	
1617.50	0.17	
1620.00	0.17	
1622.50	0.17	
1625.00	0.16	
1627.50	0.16	
1630.00	0.16	
1632.50	0.16	
1635.00	0.16	
1637.50	0.16	
1640.00	0.16	
1642.50	0.15	
1645.00	0.15	
1647.50	0.15	
1650.00	0.15	
1652.50	0.15	
1655.00	0.15	
1657.50	0.15	
1660.00	0.14	
1662.50	0.14	
1665.00	0.14	
1667.50	0.14	
1670.00	0.14	
1672.50	0.14	
1675.00	0.14	
1677.50	0.13	
1680.00	0.13	
1682.50	0.13	
1685.00	0.13	
1687.50	0.13	
1690.00	0.13	
1692.50	0.13	
1695.00	0.13	
1697.50	0.12	
1700.00	0.12	
1702.50	0.12	
1705.00	0.12	
1707.50	0.12	
1710.00	0.12	
1712.50	0.12	
1715.00	0.11	
1717.50	0.11	
1720.00	0.11	
1722.50	0.11	
1725.00	0.11	
1727.50	0.11	
1730.00	0.11	
1732.50	0.10	
1735.00	0.10	
1737.50	0.10	
1740.00	0.10	
1742.50	0.10	
1745.00	0.10	
1747.50	0.10	
1750.00	0.10	
1752.50	0.09	
1755.00	0.09	
1757.50	0.09	
1760.00	0.09	
1762.50	0.09	
1765.00	0.09	
1767.50	0.09	
1770.00	0.08	
1772.50	0.08	
1775.00	0.08	
1777.50	0.08	
1780.00	0.08	
1782.50	0.08	
1785.00	0.08	
1787.50	0.08	
1790.00	0.07	
1792.50	0.07	
1795.00	0.07	
1797.50	0.07	
1800.00	0.07	
1802.50	0.07	
1805.00	0.07	
1807.50	0.06	
1810.00	0.06	
1812.50	0.06	
1815.00	0.06	
1817.50	0.06	
1820.00	0.06	
1822.50	0.06	
1825.00	0.06	
1827.50	0.05	
1830.00	0.05	
1832.50	0.05	
1835.00	0.05	
1837.50	0.05	
1840.00	0.05	
1842.50	0.05	
1845.00	0.05	
1847.50	0.04	
1850.00	0.04	
1852.50	0.04	
1855.00	0.04	
1857.50	0.04	
1860.00	0.04	
1862.50	0.04	
1865.00	0.04	
1867.50	0.03	
1870.00	0.03	
1872.50	0.03	
1875.00	0.03	
1877.50	0.03	
1880.00	0.03	
1882.50	0.03	
1885.00	0.03	
1887.50	0.02	
1890.00	0.02	
1892.50	0.02	
1895.00	0.02	
1897.50	0.02	
1900.00	0.02	
1902.50	0.02	
1905.00	0.02	
1907.50	0.01	
1910.00	0.01	
1912.50	0.01	
1915.00	0.01	
1917.50	0.01	
1920.00	0.01	
1922.50	0.01	
1925.00	0.01	
1927.50	0.00	
1930.00	0.00	
1932.50	0.00	
1935.00	0.00	
1937.50	0.00	
1940.00	0.00	
1942.50	0.00	
1945.00	0.00	
1947.50	0.01	
1950.00	0.01	
1952.50	0.01	
1955.00	0.01	
1957.50	0.01	
1960.00	0.01	
1962.50	0.01	
1965.00	0.01	
1967.50	0.01	
1970.00	0.02	
1972.50	0.02	
1975.00	0.02	
1977.50	0.02	
1980.00	0.02	
1982.50	0.02	
1985.00	0.02	
1987.50	0.02	
1990.00	0.03	
1992.50	0.03	
1995.00	0.03	
1997.50	0.03	
2000.00	0.03	
2002.50	0.03	
2005.00	0.03	
2007.50	0.03	
2010.00	0.04	
2012.50	0.04	
2015.00	0.04	
2017.50	0.04	
2020.00	0.04	
2022.50	0.04	
2025.00	0.04	
2027.50	0.04	
2030.00	0.04	
2032.50	0.05	
2035.00	0.05	
2037.50	0.05	
2040.00	0.05	
2042.50	0.05	
2045.00	0.05	
2047.50	0.05	
2050.00	0.05	
2052.50	0.05	
2055.00	0.06	
2057.50	0.06	
2060.00	0.06	
2062.50	0.06	
2065.00	0.06	
2067.50	0.06	
2070.00	0.06	
2072.50	0.06	
2075.00	0.06	
2077.50	0.07	
2080.00	0.07	
2082.50	0.07	
2085.00	0.07	
2087.50	0.07	
2090.00	0.07	
2092.50	0.07	
2095.00	0.07	
2097.50	0.08	
2100.00	0.08	
2102.50	0.08	
2105.00	0.08	
2107.50	0.08	
2110.00	0.08	
2112.50	0.08	
2115.00	0.08	
2117.50	0.08	
2120.00	0.09	
2122.50	0.09	
2125.00	0.09	
2127.50	0.09	
2130.00	0.09	
2132.50	0.09	
2135.00	0.09	
2137.50	0.09	
2140.00	0.09	
2142.50	0.10	
2145.00	0.10	
2147.50	0.10	
2150.00	0.10	
2152.50	0.10	
2155.00	0.10	
2157.50	0.10	
2160.00	0.10	
2162.50	0.10	
2165.00	0.10	
2167.50	0.11	
2170.00	0.11	
2172.50	0.11	
2175.00	0.11	
2177.50	0.11	
2180.00	0.11	
2182.50	0.11	
2185.00	0.11	
2187.50	0.11	
2190.00	0.12	
2192.50	0.12	
2195.00	0.12	
2197.50	0.12	
2200.00	0.12	
2202.50	0.12	
2205.00	0.12	
2207.50	0.12	
2210.00	0.12	
2212.50	0.13	
2215.00	0.13	
2217.50	0.13	
2220.00	0.13	
2222.50	0.13	
2225.00	0.13	
2227.50	0.13	
2230.00	0.13	
2232.50	0.13	
2235.00	0.13	
2237.50	0.14	
2240.00	0.14	
2242.50	0.14	
2245.00	0.14	
2247.50	0.14	
2250.00	0.14	
2252.50	0.14	
2255.00	0.14	
2257.50	0.14	
2260.00	0.15	
2262.50	0.15	
2265.00	0.15	
2267.50	0.15	
2270.00	0.15	
2272.50	0.15	
2275.00	0.15	
2277.50	0.15	
2280.00	0.15	
2282.50	0.15	
2285.00	0.16	
2287.50	0.16	
2290.00	0.16	
2292.50	0.16	
2295.00	0.16	
2297.50	0.16	
2300.00	0.16	
2302.50	0.16	
2305.00	0.16	
2307.50	0.17	
2310.00	0.17	
2312.50	0.17	
2315.00	0.17	
2317.50	0.17	
2320.00	0.17	
2322.50	0.17	
2325.00	0.17	
2327.50	0.17	
2330.00	0.17	
2332.50	0.18	
2335.00	0.18	
2337.50	0.18	
2340.00	0.18	
2342.50	0.18	
2345.00	0.18	
2347.50	0.18	
2350.00	0.18	
2352.50	0.18	
2355.00	0.18	
2357.50	0.19	
2360.00	0.19	
2362.50	0.19	
2365.00	0.19	
2367.50	0.19	
2370.00	0.19	
2372.50	0.19	
2375.00	0.19	
2377.50	0.19	
2380.00	0.19	
2382.50	0.20	
2385.00	0.20	
2387.50	0.20	
2390.00	0.20	
2392.50	0.20	
2395.00	0.20	
2397.50	0.20	
2400.00	0.20	
2402.50	0.20	
2405.00	0.20	
2407.50	0.21	
2410.00	0.21	
2412.50	0.21	
2415.00	0.21	
2417.50	0.21	
2420.00	0.21	
2422.50	0.21	
2425.00	0.21	
2427.50	0.21	
2430.00	0.21	
2432.50	0.21	
2435.00	0.22	
2437.50	0.22	
2440.00	0.22	
2442.50	0.22	
2445.00	0.22	
2447.50	0.22	
2450.00	0.22	
2452.50	0.22	
2455.00	0.22	
2457.50	0.22	
2460.00	0.23	
2462.50	0.23	
2465.00	0.23	
2467.50	0.23	
2470.00	0.23	
2472.50	0.23	
2475.00	0.23	
2477.50	0.23	
2480.00	0.23	
2482.50	0.23	
2485.00	0.24	
2487.50	0.24	
2490.00	0.24	
2492.50	0.24	
2495.00	0.24	
2497.50	0.24	
2500.00	0.24	
2502.50	0.24	
2505.00	0.24	
2507.50	0.24	
2510.00	0.24	
2512.50	0.25	
2515.00	0.25	
2517.50	0.25	
2520.00	0.25	
2522.50	0.25	
2525.00	0.25	
2527.50	0.25	
2530.00	0.25	
2532.50	0.25	
2535.00	0.25	
2537.50	0.25	
2540.00	0.26	
2542.50	0.26	
2545.00	0.26	
2547.50	0.26	
2550.00	0.26	
2552.50	0.26	
2555.00	0.26	
2557.50	0.26	
2560.00	0.26	
2562.50	0.26	
2565.00	0.27	
2567.50	0.27	
2570.00	0.27	
2572.50	0.27	
2575.00	0.27	
2577.50	0.27	
2580.00	0.27	
2582.50	0.27	
2585.00	0.27	
2587.50	0.27	
2590.00	0.27	
2592.50	0.28	
2595.00	0.28	
2597.50	0.28	
2600.00	0.28	
2602.50	0.28	
2605.00	0.28	
2607.50	0.28	
2610.00	0.28	
2612.50	0.28	
2615.00	0.28	
2617.50	0.28	
2620.00	0.29	
2622.50	0.29	
2625.00	0.29	
2627.50	0.29	
2630.00	0.29	
2632.50	0.29	
2635.00	0.29	
2637.50	0.29	
2640.00	0.29	
2642.50	0.29	
2645.00	0.29	
2647.50	0.30	
2650.00	0.30	
2652.50	0.30	
2655.00	0.30	
2657.50	0.30	
2660.00	0.30	
2662.50	0.30	
2665.00	0.30	
2667.50	0.30	
2670.00	0.30	
2672.50	0.30	
2675.00	0.31	
2677.50	0.31	
2680.00	0.31	
2682.50	0.31	
2685.00	0.31	
2687.50	0.31	
2690.00	0.31	
2692.50	0.31	
2695.00	0.31	
2697.50	0.31	
2700.00	0.31	
2702.50	0.32	
2705.00	0.32	
2707.50	0.32	
2710.00	0.32	
2712.50	0.32	
2715.00	0.32	
2717.50	0.32	
2720.00	0.32	
2722.50	0.32	
2725.00	0.32	
2727.50	0.32	
2730.00	0.32	
2732.50	0.33	
2735.00	0.33	
2737.50	0.33	
2740.00	0.33	
2742.50	0.33	
2745.00	0.33	
2747.50	0.33	
2750.00	0.33	
2752.50	0.33	
2755.00	0.33	
2757.50	0.33	
2760.00	0.34	
2762.50	0.34	
2765.00	0.34	
2767.50	0.34	
2770.00	0.34	
2772.50	0.34	
2775.00	0.34	
2777.50	0.34	
2780.00	0.34	
2782.50	0.34	
2785.00	0.34	
2787.50	0.34	
2790.00	0.35	
2792.50	0.35	
2795.00	0.35	
2797.50	0.35	
2800.00	0.35	
2802.50	0.35	
2805.00	0.35	
2807.50	0.35	
2810.00	0.35	
2812.50	0.35	
2815.00	0.35	
2817.50	0.35	
2820.00	0.36	
2822.50	0.36	
2825.00	0.36	
2827.50	0.36	
2830.00	0.36	
2832.50	0.36	
2835.00	0.36	
2837.50	0.36	
2840.00	0.36	
2842.50	0.36	
2845.00	0.36	
2847.50	0.37	
2850.00	0.37	
2852.50	0.37	
2855.00	0.37	
2857.50	0.37	
2860.00	0.37	
2862.50	0.37	
2865.00	0.37	
2867.50	0.37	
2870.00	0.37	
2872.50	0.37	
2875.00	0.37	
2877.50	0.38	
2880.00	0.38	
2882.50	0.38	
2885.00	0.38	
2887.50	0.38	
2890.00	0.38	
2892.50	0.38	
2895.00	0.38	
2897.50	0.38	
2900.00	0.38	
2902.50	0.38	
2905.00	0.38	
2907.50	0.39	
2910.00	0.39	
2912.50	0.39	
2915.00	0.39	
2917.50	0.39	
2920.00	0.39	
2922.50	0.39	
2925.00	0.39	
2927.50	0.39	
2930.00	0.39	
2932.50	0.39	
2935.00	0.39	
2937.50	0.39	
2940.00	0.40	
2942.50	0.40	
2945.00	0.40	
2947.50	0.40	
2950.00	0.40	
2952.50	0.40	
2955.00	0.40	
2957.50	0.40	
2960.00	0.40	
2962.50	0.40	
2965.00	0.40	
2967.50	0.40	
2970.00	0.41	
2972.50	0.41	
2975.00	0.41	
2977.50	0.41	
2980.00	0.41	
2982.50	0.41	
2985.00	0.41	
2987.50	0.41	
2990.00	0.41	
2992.50	0.41	
2995.00	0.41	
2997.50	0.41	
3000.00	0.42	
3002.50	0.42	
3005.00	0.42	
3007.50	0.42	
3010.00	0.42	
3012.50	0.42	
3015.00	0.42	
3017.50	0.42	
3020.00	0.42	
3022.50	0.42	
3025.00	0.42	
3027.50	0.42	
3030.00	0.42	
3032.50	0.43	
3035.00	0.43	
3037.50	0.43	
3040.00	0.43	
3042.50	0.43	
3045.00	0.43	
3047.50	0.43	
3050.00	0.43	
3052.50	0.43	
3055.00	0.43	
3057.50	0.43	
3060.00	0.43	
3062.50	0.44	
3065.00	0.44	
3067.50	0.44	
3070.00	0.44	
3072.50	0.44	
3075.00	0.44	
3077.50	0.44	
3080.00	0.44	
3082.50	0.44	
3085.00	0.44	
3087.50	0.44	
3090.00	0.44	
3092.50	0.44	
3095.00	0.45	
3097.50	0.45	
3100.00	0.45	
3102.50	0.45	
3105.00	0.45	
3107.50	0.45	
3110.00	0.45	
3112.50	0.45	
3115.00	0.45	
3117.50	0.45	
3120.00	0.45	
3122.50	0.45	
3125.00	0.45	
3127.50	0.46	
3130.00	0.46	
3132.50	0.46	
3135.00	0.46	
3137.50	0.46	
3140.00	0.46	
3142.50	0.46	
3145.00	0.46	
3147.50	0.46	
3150.00	0.46	
3152.50	0.46	
3155.00	0.46	
3157.50	0.46	
3160.00	0.47	
3162.50	0.47	
3165.00	0.47	
3167.50	0.47	
3170.00	0.47	
3172.50	0.47	
3175.00	0.47	
3177.50	0.47	
3180.00	0.47	
3182.50	0.47	
3185.00	0.47	
3187.50	0.47	
3190.00	0.47	
3192.50	0.48	
3195.00	0.48	
3197.50	0.48	
3200.00	0.48	
3202.50	0.48	
3205.00	0.48	
3207.50	0.48	
3210.00	0.48	
3212.50	0.48	
3215.00	0.48	
3217.50	0.48	
3220.00	0.48	
3222.50	0.48	
3225.00	0.49	
3227.50	0.49	
3230.00	0.49	
3232.50	0.49	
3235.00	0.49	
3237.50	0.49	
3240.00	0.49	
3242.50	0.49	
3245.00	0.49	
3247.50	0.49	
3250.00	0.49	
3252.50	0.49	
3255.00	0.49	
3257.50	0.50	
3260.00	0.50	
3262.50	0.50	
3265.00	0.50	
3267.50	0.50	
3270.00	0.50	
3272.50	0.50	
3275.00	0.50	
3277.50	0.50	
3280.00	0.50	
3282.50	0.50	
3285.00	0.50	
3287.50	0.50	
3290.00	0.50	
3292.50	0.51	
3295.00	0.51	
3297.50	0.51	
3300.00	0.51	
3302.50	0.51	
3305.00	0.51	
3307.50	0.51	
3310.00	0.51	
3312.50	0.51	
3315.00	0.51	
3317.50	0.51	
3320.00	0.51	
3322.50	0.51	
3325.00	0.52	
3327.50	0.52	
3330.00	0.52	
3332.50	0.52	
3335.00	0.52	
3337.50	0.52	
3340.00	0.52	
3342.50	0.52	
3345.00	0.52	
3347.50	0.52	
3350.00	0.52	
3352.50	0.52	
3355.00	0.52	
3357.50	0.52	
3360.00	0.53	
3362.50	0.53	
3365.00	0.53	
3367.50	0.53	
3370.00	0.53	
3372.50	0.53	
3375.00	0.53	
3377.50	0.53	
3380.00	0.53	
3382.50	0.53	
3385.00	0.53	
3387.50	0.53	
3390.00	0.53	
3392.50	0.53	
3395.00	0.54	
3397.50	0.54	
3400.00	0.54	
3402.50	0.54	
3405.00	0.54	
3407.50	0.54	
3410.00	0.54	
3412.50	0.54	
3415.00	0.54	
3417.50	0.54	
3420.00	0.54	
3422.50	0.54	
3425.00	0.54	
3427.50	0.54	
3430.00	0.55	
3432.50	0.55	
3435.00	0.55	
3437.50	0.55	
3440.00	0.55	
3442.50	0.55	
3445.00	0.55	
3447.50	0.55	
3450.00	0.55	
3452.50	0.55	
3455.00	0.55	
3457.50	0.55	
3460.00	0.55	
3462.50	0.55	
3465.00	0.56	
3467.50	0.56	
3470.00	0.56	
3472.50	0.56	
3475.00	0.56	
3477.50	0.56	
3480.00	0.56	
3482.50	0.56	
3485.00	0.56	
3487.50	0.56	
3490.00	0.56	
3492.50	0.56	
3495.00	0.56	
3497.50	0.56	
3500.00	0.57	
3502.50	0.57	
3505.00	0.57	
3507.50	0.57	
3510.00	0.57	
3512.50	0.57	
3515.00	0.57	
3517.50	0.57	
3520.00	0.57	
3522.50	0.57	
3525.00	0.57	
3527.50	0.57	
3530.00	0.57	
3532.50	0.57	
3535.00	0.57	
3537.50	0.58	
3540.00	0.58	
3542.50	0.58	
3545.00	0.58	
3547.50	0.58	
3550.00	0.58	
3552.50	0.58	
3555.00	0.58	
3557.50	0.58	
3560.00	0.58	
3562.50	0.58	
3565.00	0.58	
3567.50	0.58	
3570.00	0.58	
3572.50	0.59	
3575.00	0.59	
3577.50	0.59	
3580.00	0.59	
3582.50	0.59	
3585.00	0.59	
3587.50	0.59	
3590.00	0.59	
3592.50	0.59	
3595.00	0.59	
3597.50	0.59	
3600.00	0.59	
3602.50	0.59	
3605.00	0.59	
3607.50	0.59	
3610.00	0.60	
3612.50	0.60	
3615.00	0.60	
3617.50	0.60	
3620.00	0.60	
3622.50	0.60	
3625.00	0.60	
3627.50	0.60	
3630.00	0.60	
3632.50	0.60	
3635.00	0.60	
3637.50	0.60	
3640.00	0.60	
3642.50	0.60	
3645.00	0.60	
3647.50	0.61	
3650.00	0.61	
3652.50	0.61	
3655.00	0.61	
3657.50	0.61	
3660.00	0.61	
3662.50	0.61	
3665.00	0.61	
3667.50	0.61	
3670.00	0.61	
3672.50	0.61	
3675.00	0.61	
3677.50	0.61	
3680.00	0.61	
3682.50	0.61	
3685.00	0.62	
3687.50	0.62	
3690.00	0.62	
3692.50	0.62	
3695.00	0.62	
3697.50	0.62	
3700.00	0.62	
3702.50	0.62	
3705.00	0.62	
3707.50	0.62	
3710.00	0.62	
3712.50	0.62	
3715.00	0.62	
3717.50	0.62	
3720.00	0.62	
3722.50	0.63	
3725.00	0.63	
3727.50	0.63	
3730.00	0.63	
3732.50	0.63	
3735.00	0.63	
3737.50	0.63	
3740.00	0.63	
3742.50	0.63	
3745.00	0.63	
3747.50	0.63	
3750.00	0.63	
3752.50	0.63	
3755.00	0.63	
3757.50	0.63	
3760.00	0.64	
3762.50	0.64	
3765.00	0.64	
3767.50	0.64	
3770.00	0.64	
3772.50	0.64	
3775.00	0.64	
3777.50	0.64	
3780.00	0.64	
3782.50	0.64	
3785.00	0.64	
3787.50	0.64	
3790.00	0.64	
3792.50	0.64	
3795.00	0.64	
3797.50	0.65	
3800.00	0.65	
3802.50	0.65	
3805.00	0.65	
3807.50	0.65	
3810.00	0.65	
3812.50	0.65	
3815.00	0.65	
3817.50	0.65	
3820.00	0.65	
3822.50	0.65	
3825.00	0.65	
3827.50	0.65	
3830.00	0.65	
3832.50	0.65	
3835.00	0.65	
3837.50	0.66	
3840.00	0.66	
3842.50	0.66	
3845.00	0.66	
3847.50	0.66	
3850.00	0.66	
3852.50	0.66	
3855.00	0.66	
3857.50	0.66	
3860.00	0.66	
3862.50	0.66	
3865.00	0.66	
3867.50	0.66	
3870.00	0.66	
3872.50	0.66	
3875.00	0.67	
3877.50	0.67	
3880.00	0.67	
3882.50	0.67	
3885.00	0.67	
3887.50	0.67	
3890.00	0.67	
3892.50	0.67	
3895.00	0.67	
3897.50	0.67	
3900.00	0.67	
3902.50	0.67	
3905.00	0.67	
3907.50	0.67	
3910.00	0.67	
3912.50	0.67	
3915.00	0.68	
3917.50	0.68	
3920.00	0.68	
3922.50	0.68	
3925.00	0.68	
3927.50	0.68	
3930.00	0.68	
3932.50	0.68	
3935.00	0.68	
3937.50	0.68	
3940.00	0.68	
3942.50	0.68	
3945.00	0.68	
3947.50	0.68	
3950.00	0.68	
3952.50	0.68	
3955.00	0.69	
3957.50	0.69	
3960.00	0.69	
3962.50	0.69	
3965.00	0.69	
3967.50	0.69	
3970.00	0.69	
3972.50	0.69	
3975.00	0.69	
3977.50	0.69	
3980.00	0.69	
3982.50	0.69	
3985.00	0.69	
3987.50	0.69	
3990.00	0.69	
3992.50	0.69	
3995.00	0.70	
3997.50	0.70	
4000.00	0.70	
4002.50	0.70	
4005.00	0.70	
4007.50	0.70	
4010.00	0.70	
4012.50	0.70	
4015.00	0.70	
4017.50	0.70	
4020.00	0.70	
4022.50	0.70	
4025.00	0.70	
4027.50	0.70	
4030.00	0.70	
4032.50	0.70	
4035.00	0.70	
4037.50	0.71	
4040.00	0.71	
4042.50	0.71	
4045.00	0.71	
4047.50	0.71	
4050.00	0.71	
4052.50	0.71	
4055.00	0.71	
4057.50	0.71	
4060.00	0.71	
4062.50	0.71	
4065.00	0.71	
4067.50	0.71	
4070.00	0.71	
4072.50	0.71	
4075.00	0.71	
4077.50	0.72	
4080.00	0.72	
4082.50	0.72	
4085.00	0.72	
4087.50	0.72	
4090.00	0.72	
4092.50	0.72	
4095.00	0.72	
4097.50	0.72	
4100.00	0.72	
4102.50	0.72	
4105.00	0.72	
4107.50	0.72	
4110.00	0.72	
4112.50	0.72	
4115.00	0.72	
4117.50	0.72	
4120.00	0.73	
4122.50	0.73	
4125.00	0.73	
4127.50	0.73	
4130.00	0.73	
4132.50	0.73	
4135.00	0.73	
4137.50	0.73	
4140.00	0.73	
4142.50	0.73	
4145.00	0.73	
4147.50	0.73	
4150.00	0.73	
4152.50	0.73	
4155.00	0.73	
4157.50	0.73	
4160.00	0.74	
4162.50	0.74	
4165.00	0.74	
4167.50	0.74	
4170.00	0.74	
4172.50	0.74	
4175.00	0.74	
4177.50	0.74	
4180.00	0.74	
4182.50	0.74	
4185.00	0.74	
4187.50	0.74	
4190.00	0.74	
4192.50	0.74	
4195.00	0.74	
4197.50	0.74	
4200.00	0.74	
4202.50	0.75	
4205.00	0.75	
4207.50	0.75	
4210.00	0.75	
4212.50	0.75	
4215.00	0.75	
4217.50	0.75	
4220.00	0.75	
4222.50	0.75	
4225.00	0.75	
4227.50	0.75	
4230.00	0.75	
4232.50	0.75	
4235.00	0.75	
4237.50	0.75	
4240.00	0.75	
4242.50	0.75	
4245.00	0.76	
4247.50	0.76	
4250.00	0.76	
4252.50	0.76	
4255.00	0.76	
4257.50	0.76	
4260.00	0.76	
4262.50	0.76	
4265.00	0.76	
4267.50	0.76	
4270.00	0.76	
4272.50	0.76	
4275.00	0.76	
4277.50	0.76	
4280.00	0.76	
4282.50	0.76	
4285.00	0.76	
4287.50	0.76	
4290.00	0.77	
4292.50	0.77	
4295.00	0.77	
4297.50	0.77	
4300.00	0.77	
4302.50	0.77	
4305.00	0.77	
4307.50	0.77	
4310.00	0.77	
4312.50	0.77	
4315.00	0.77	
4317.50	0.77	
4320.00	0.77	
4322.50	0.77	
4325.00	0.77	
4327.50	0.77	
4330.00	0.77	
4332.50	0.78	
4335.00	0.78	
4337.50	0.78	
4340.00	0.78	
4342.50	0.78	
4345.00	0.78	
4347.50	0.78	
4350.00	0.78	
4352.50	0.78	
4355.00	0.78	
4357.50	0.78	
4360.00	0.78	
4362.50	0.78	
4365.00	0.78	
4367.50	0.78	
4370.00	0.78	
4372.50	0.78	
4375.00	0.78	
4377.50	0.79	
4380.00	0.79	
4382.50	0.79	
4385.00	0.79	
4387.50	0.79	
4390.00	0.79	
4392.50	0.79	
4395.00	0.79	
4397.50	0.79	
4400.00	0.79	
4402.50	0.79	
4405.00	0.79	
4407.50	0.79	
4410.00	0.79	
4412.50	0.79	
4415.00	0.79	
4417.50	0.79	
4420.00	0.79	
4422.50	0.80	
4425.00	0.80	
4427.50	0.80	
4430.00	0.80	
4432.50	0.80	
4435.00	0.80	
4437.50	0.80	
4440.00	0.80	
4442.50	0.80	
4445.00	0.80	
4447.50	0.80	
4450.00	0.80	
4452.50	0.80	
4455.00	0.80	
4457.50	0.80	
4460.00	0.80	
4462.50	0.80	
4465.00	0.80	
4467.50	0.81	
4470.00	0.81	
4472.50	0.81	
4475.00	0.81	
4477.50	0.81	
4480.00	0.81	
4482.50	0.81	
4485.00	0.81	
4487.50	0.81	
4490.00	0.81	
4492.50	0.81	
4495.00	0.81	
4497.50	0.81	
4500.00	0.81	
4502.50	0.81	
4505.00	0.81	
4507.50	0.81	
4510.00	0.81	
4512.50	0.82	
4515.00	0.82	
4517.50	0.82	
4520.00	0.82	
4522.50	0.82	
4525.00	0.82	
4527.50	0.82	
4530.00	0.82	
4532.50	0.82	
4535.00	0.82	
4537.50	0.82	
4540.00	0.82	
4542.50	0.82	
4545.00	0.82	
4547.50	0.82	
4550.00	0.82	
4552.50	0.82	
4555.00	0.82	
4557.50	0.83	
4560.00	0.83	
4562.50	0.83	
4565.00	0.83	
4567.50	0.83	
4570.00	0.83	
4572.50	0.83	
4575.00	0.83	
4577.50	0.83	
4580.00	0.83	
4582.50	0.83	
4585.00	0.83	
4587.50	0.83	
4590.00	0.83	
4592.50	0.83	
4595.00	0.83	
4597.50	0.83	
4600.00	0.83	
4602.50	0.83	
4605.00	0.84	
4607.50	0.84	
4610.00	0.84	
4612.50	0.84	
4615.00	0.84	
4617.50	0.84	
4620.00	0.84	
4622.50	0.84	
4625.00	0.84	
4627.50	0.84	
4630.00	0.84	
4632.50	0.84	
4635.00	0.84	
4637.50	0.84	
4640.00	0.84	
4642.50	0.84	
4645.00	0.84	
4647.50	0.84	
4650.00	0.85	
4652.50	0.85	
4655.00	0.85	
4657.50	0.85	
4660.00	0.85	
4662.50	0.85	
4665.00	0.85	
4667.50	0.85	
4670.00	0.85	
4672.50	0.85	
4675.00	0.85	
4677.50	0.85	
4680.00	0.85	
4682.50	0.85	
4685.00	0.85	
4687.50	0.85	
4690.00	0.85	
4692.50	0.85	
4695.00	0.85	
4697.50	0.86	
4700.00	0.86	
4702.50	0.86	
4705.00	0.86	
4707.50	0.86	
4710.00	0.86	
4712.50	0.86	
4715.00	0.86	
4717.50	0.86	
4720.00	0.86	
4722.50	0.86	
4725.00	0.86	
4727.50	0.86	
4730.00	0.86	
4732.50	0.86	
4735.00	0.86	
4737.50	0.86	
4740.00	0.86	
4742.50	0.86	
4745.00	0.86	
4747.50	0.87	
4750.00	0.87	
4752.50	0.87	
4755.00	0.87	
4757.50	0.87	
4760.00	0.87	
4762.50	0.87	
4765.00	0.87	
4767.50	0.87	
4770.00	0.87	
4772.50	0.87	
4775.00	0.87	
4777.50	0.87	
4780.00	0.87	
4782.50	0.87	
4785.00	0.87	
4787.50	0.87	
4790.00	0.87	
4792.50	0.87	
4795.00	0.88	
4797.50	0.88	
4800.00	0.88	
4802.50	0.88	
4805.00	0.88	
4807.50	0.88	
4810.00	0.88	
4812.50	0.88	
4815.00	0.88	
4817.50	0.88	
4820.00	0.88	
4822.50	0.88	
4825.00	0.88	
4827.50	0.88	
4830.00	0.88	
4832.50	0.88	
4835.00	0.88	
4837.50	0.88	
4840.00	0.88	
4842.50	0.88	
4845.00	0.89	
4847.50	0.89	
4850.00	0.89	
4852.50	0.89	
4855.00	0.89	
4857.50	0.89	
4860.00	0.89	
4862.50	0.89	
4865.00	0.89	
4867.50	0.89	
4870.00	0.89	
4872.50	0.89	
4875.00	0.89	
4877.50	0.89	
4880.00	0.89	
4882.50	0.89	
4885.00	0.89	
4887.50	0.89	
4890.00	0.89	
4892.50	0.90	
4895.00	0.90	
4897.50	0.90	
4900.00	0.90	
4902.50	0.90	
4905.00	0.90	
4907.50	0.90	
4910.00	0.90	
4912.50	0.90	
4915.00	0.90	
4917.50	0.90	
4920.00	0.90	
4922.50	0.90	
4925.00	0.90	
4927.50	0.90	
4930.00	0.90	
4932.50	0.90	
4935.00	0.90	
4937.50	0.90	
4940.00	0.90	
4942.50	0.90	
4945.00	0.91	
4947.50	0.91	
4950.00	0.91	
4952.50	0.91	
4955.00	0.91	
4957.50	0.91	
4960.00	0.91	
4962.50	0.91	
4965.00	0.91	
4967.50	0.91	
4970.00	0.91	
4972.50	0.91	
4975.00	0.91	
4977.50	0.91	
4980.00	0.91	
4982.50	0.91	
4985.00	0.91	
4987.50	0.91	
4990.00	0.91	
4992.50	0.91	
4995.00	0.92	
4997.50	0.92	
5000.00	0.92	
5002.50	0.92	
5005.00	0.92	
5007.50	0.92	
5010.00	0.92	
5012.50	0.92	
5015.00	0.92	
5017.50	0.92	
5020.00	0.92	
5022.50	0.92	
5025.00	0.92	
5027.50	0.92	
5030.00	0.92	
5032.50	0.92	
5035.00	0.92	
5037.50	0.92	
5040.00	0.92	
5042.50	0.92	
5045.00	0.93	
5047.50	0.93	
5050.00	0.93	
5052.50	0.93	
5055.00	0.93	
5057.50	0.93	
5060.00	0.93	
5062.50	0.93	
5065.00	0.93	
5067.50	0.93	
5070.00	0.93	
5072.50	0.93	
5075.00	0.93	
5077.50	0.93	
5080.00	0.93	
5082.50	0.93	
5085.00	0.93	
5087.50	0.93	
5090.00	0.93	
5092.50	0.93	
5095.00	0.93	
5097.50	0.94	
5100.00	0.94	
5102.50	0.94	
5105.00	0.94	
5107.50	0.94	
5110.00	0.94	
5112.50	0.94	
5115.00	0.94	
5117.50	0.94	
5120.00	0.94	
5122.50	0.94	
5125.00	0.94	
5127.50	0.94	
5130.00	0.94	
5132.50	0.94	
5135.00	0.94	
5137.50	0.94	
5140.00	0.94	
5142.50	0.94	
5145.00	0.94	
5147.50	0.94	
5150.00	0.95	
5152.50	0.95	
5155.00	0.95	
5157.50	0.95	
5160.00	0.95	
5162.50	0.95	
5165.00	0.95	
5167.50	0.95	
5170.00	0.95	
5172.50	0.95	
5175.00	0.95	
5177.50	0.95	
5180.00	0.95	
5182.50	0.95	
5185.00	0.95	
5187.50	0.95	
5190.00	0.95	
5192.50	0.95	
5195.00	0.95	
5197.50	0.95	
5200.00	0.95	
5202.50	0.96	
5205.00	0.96	
5207.50	0.96	
5210.00	0.96	
5212.50	0.96	
5215.00	0.96	
5217.50	0.96	
5220.00	0.96	
5222.50	0.96	
5225.00	0.96	
5227.50	0.96	
5230.00	0.96	
5232.50	0.96	
5235.00	0.96	
5237.50	0.96	
5240.00	0.96	
5242.50	0.96	
5245.00	0.96	
5247.50	0.96	
5250.00	0.96	
5252.50	0.96	
5255.00	0.96	
5257.50	0.97	
5260.00	0.97	
5262.50	0.97	
5265.00	0.97	
5267.50	0.97	
5270.00	0.97	
5272.50	0.97	
5275.00	0.97	
5277.50	0.97	
5280.00	0.97	
5282.50	0.97	
5285.00	0.97	
5287.50	0.97	
5290.00	0.97	
5292.50	0.97	
5295.00	0.97	
5297.50	0.97	
5300.00	0.97	
5302.50	0.97	
5305.00	0.97	
5307.50	0.97	
5310.00	0.98	
5312.50	0.98	
5315.00	0.98	
5317.50	0.98	
5320.00	0.98	
5322.50	0.98	
5325.00	0.98	
5327.50	0.98	
5330.00	0.98	
5332.50	0.98	
5335.00	0.98	
5337.50	0.98	
5340.00	0.98	
5342.50	0.98	
5345.00	0.98	
5347.50	0.98	
5350.00	0.98	
5352.50	0.98	
5355.00	0.98	
5357.50	0.98	
5360.00	0.98	
5362.50	0.98	
5365.00	0.99	
5367.50	0.99	
5370.00	0.99	
5372.50	0.99	
5375.00	0.99	
5377.50	0.99	
5380.00	0.99	
5382.50	0.99	
5385.00	0.99	
5387.50	0.99	
5390.00	0.99	
5392.50	0.99	
5395.00	0.99	
5397.50	0.99	
5400.00	0.99	
5402.50	0.99	
5405.00	0.99	
5407.50	0.99	
5410.00	0.99	
5412.50	0.99	
5415.00	0.99	
5417.50	0.99	
5420.00	0.99	
5422.50	1.00	
5425.00	1.00	
5427.50	1.00	
5430.00	1.00	
5432.50	1.00	
5435.00	1.00	
5437.50	1.00	
5440.00	1.00	
5442.50	1.00	
5445.00	1.00	
5447.50	1.00	
5450.00	1.00	
5452.50	1.00	
5455.00	1.00	
5457.50	1.00	
5460.00	1.00	
5462.50	1.00	
5465.00	1.00	
5467.50	1.00	
5470.00	1.00	
5472.50	1.00	
5475.00	1.00	
5477.50	1.01	
5480.00	1.01	
5482.50	1.01	
5485.00	1.01	
5487.50	1.01	
5490.00	1.01	
5492.50	1.01	
5495.00	1.01	
5497.50	1.01	
5500.00	1.01	
5502.50	1.01	
5505.00	1.01	
5507.50	1.01	
5510.00	1.01	
5512.50	1.01	
5515.00	1.01	
5517.50	1.01	
5520.00	1.01	
5522.50	1.01	
5525.00	1.01	
5527.50	1.01	
5530.00	1.01	
5532.50	1.01	
5535.00	1.02	
5537.50	1.02	
5540.00	1.02	
5542.50	1.02	
5545.00	1.02	
5547.50	1.02	
5550.00	1.02	
5552.50	1.02	
5555.00	1.02	
5557.50	1.02	
5560.00	1.02	
5562.50	1.02	
5565.00	1.02	
5567.50	1.02	
5570.00	1.02	
5572.50	1.02	
5575.00	1.02	
5577.50	1.02	
5580.00	1.02	
5582.50	1.02	
5585.00	1.02	
5587.50	1.02	
5590.00	1.02	
5592.50	1.03	
5595.00	1.03	
5597.50	1.03	
5600.00	1.03	
5602.50	1.03	
5605.00	1.03	
5607.50	1.03	
5610.00	1.03	
5612.50	1.03	
5615.00	1.03	
5617.50	1.03	
5620.00	1.03	
5622.50	1.03	
5625.00	1.03	
5627.50	1.03	
5630.00	1.03	
5632.50	1.03	
5635.00	1.03	
5637.50	1.03	
5640.00	1.03	
5642.50	1.03	
5645.00	1.03	
5647.50	1.03	
5650.00	1.03	
5652.50	1.04	
5655.00	1.04	
5657.50	1.04	
5660.00	1.04	
5662.50	1.04	
5665.00	1.04	
5667.50	1.04	
5670.00	1.04	
5672.50	1.04	
5675.00	1.04	
5677.50	1.04	
5680.00	1.04	
5682.50	1.04	
5685.00	1.04	
5687.50	1.04	
5690.00	1.04	
5692.50	1.04	
5695.00	1.04	
5697.50	1.04	
5700.00	1.04	
5702.50	1.04	
5705.00	1.04	
5707.50	1.04	
5710.00	1.05	
5712.50	1.05	
5715.00	1.05	
5717.50	1.05	
5720.00	1.05	
5722.50	1.05	
5725.00	1.05	
5727.50	1.05	
5730.00	1.05	
5732.50	1.05	
5735.00	1.05	
5737.50	1.05	
5740.00	1.05	
5742.50	1.05	
5745.00	1.05	
5747.50	1.05	
5750.00	1.05	
5752.50	1.05	
5755.00	1.05	
5757.50	1.05	
5760.00	1.05	
5762.50	1.05	
5765.00	1.05	
5767.50	1.05	
5770.00	1.06	
5772.50	1.06	
5775.00	1.06	
5777.50	1.06	
5780.00	1.06	
5782.50	1.06	
5785.00	1.06	
5787.50	1.06	
5790.00	1.06	
5792.50	1.06	
5795.00	1.06	
5797.50	1.06	
5800.00	1.06	
5802.50	1.06	
5805.00	1.06	
5807.50	1.06	
5810.00	1.06	
5812.50	1.06	
5815.00	1.06	
5817.50	1.06	
5820.00	1.06	
5822.50	1.06	
5825.00	1.06	
5827.50	1.06	
5830.00	1.06	
5832.50	1.07	
5835.00	1.07	
5837.50	1.07	
5840.00	1.07	
5842.50	1.07	
5845.00	1.07	
5847.50	1.07	
5850.00	1.07	
5852.50	1.07	
5855.00	1.07	
5857.50	1.07	
5860.00	1.07	
5862.50	1.07	
5865.00	1.07	
5867.50	1.07	
5870.00	1.07	
5872.50	1.07	
5875.00	1.07	
5877.50	1.07	
5880.00	1.07	
5882.50	1.07	
5885.00	1.07	
5887.50	1.07	
5890.00	1.07	
5892.50	1.08	
5895.00	1.08	
5897.50	1.08	
5900.00	1.08	
5902.50	1.08	
5905.00	1.08	
5907.50	1.08	
5910.00	1.08	
5912.50	1.08	
5915.00	1.08	
5917.50	1.08	
5920.00	1.08	
5922.50	1.08	
5925.00	1.08	
5927.50	1.08	
5930.00	1.08	
5932.50	1.08	
5935.00	1.08	
5937.50	1.08	
5940.00	1.08	
5942.50	1.08	
5945.00	1.08	
5947.50	1.08	
5950.00	1.08	
5952.50	1.08	
5955.00	1.09	
5957.50	1.09	
5960.00	1.09	
5962.50	1.09	
5965.00	1.09	
5967.50	1.09	
5970.00	1.09	
5972.50	1.09	
5975.00	1.09	
5977.50	1.09	
5980.00	1.09	
5982.50	1.09	
5985.00	1.09	
5987.50	1.09	
5990.00	1.09	
5992.50	1.09	
5995.00	1.09	
5997.50	1.09	
6000.00	1.09	
