 Frequency [Hz] - Resonance Curve	Voltage [V] - Resonance Curve	
1002.50	0.63	
1005.00	0.63	
1007.50	0.64	
1010.00	0.64	
1012.50	0.64	
1015.00	0.64	
1017.50	0.65	
1020.00	0.65	
1022.50	0.65	
1025.00	0.65	
1027.50	0.66	
1030.00	0.66	
1032.50	0.66	
1035.00	0.66	
1037.50	0.67	
1040.00	0.67	
1042.50	0.67	
1045.00	0.67	
1047.50	0.68	
1050.00	0.68	
1052.50	0.68	
1055.00	0.68	
1057.50	0.69	
1060.00	0.69	
1062.50	0.69	
1065.00	0.69	
1067.50	0.70	
1070.00	0.70	
1072.50	0.70	
1075.00	0.71	
1077.50	0.71	
1080.00	0.71	
1082.50	0.71	
1085.00	0.72	
1087.50	0.72	
1090.00	0.72	
1092.50	0.72	
1095.00	0.73	
1097.50	0.73	
1100.00	0.73	
1102.50	0.74	
1105.00	0.74	
1107.50	0.74	
1110.00	0.74	
1112.50	0.75	
1115.00	0.75	
1117.50	0.75	
1120.00	0.76	
1122.50	0.76	
1125.00	0.76	
1127.50	0.76	
1130.00	0.77	
1132.50	0.77	
1135.00	0.77	
1137.50	0.78	
1140.00	0.78	
1142.50	0.78	
1145.00	0.79	
1147.50	0.79	
1150.00	0.79	
1152.50	0.79	
1155.00	0.80	
1157.50	0.80	
1160.00	0.80	
1162.50	0.81	
1165.00	0.81	
1167.50	0.81	
1170.00	0.82	
1172.50	0.82	
1175.00	0.82	
1177.50	0.83	
1180.00	0.83	
1182.50	0.83	
1185.00	0.84	
1187.50	0.84	
1190.00	0.84	
1192.50	0.84	
1195.00	0.85	
1197.50	0.85	
1200.00	0.85	
1202.50	0.86	
1205.00	0.86	
1207.50	0.86	
1210.00	0.87	
1212.50	0.87	
1215.00	0.87	
1217.50	0.88	
1220.00	0.88	
1222.50	0.88	
1225.00	0.89	
1227.50	0.89	
1230.00	0.89	
1232.50	0.90	
1235.00	0.90	
1237.50	0.90	
1240.00	0.91	
1242.50	0.91	
1245.00	0.92	
1247.50	0.92	
1250.00	0.92	
1252.50	0.93	
1255.00	0.93	
1257.50	0.93	
1260.00	0.94	
1262.50	0.94	
1265.00	0.94	
1267.50	0.95	
1270.00	0.95	
1272.50	0.95	
1275.00	0.96	
1277.50	0.96	
1280.00	0.97	
1282.50	0.97	
1285.00	0.97	
1287.50	0.98	
1290.00	0.98	
1292.50	0.98	
1295.00	0.99	
1297.50	0.99	
1300.00	1.00	
1302.50	1.00	
1305.00	1.00	
1307.50	1.01	
1310.00	1.01	
1312.50	1.01	
1315.00	1.02	
1317.50	1.02	
1320.00	1.03	
1322.50	1.03	
1325.00	1.03	
1327.50	1.04	
1330.00	1.04	
1332.50	1.05	
1335.00	1.05	
1337.50	1.05	
1340.00	1.06	
1342.50	1.06	
1345.00	1.07	
1347.50	1.07	
1350.00	1.07	
1352.50	1.08	
1355.00	1.08	
1357.50	1.09	
1360.00	1.09	
1362.50	1.10	
1365.00	1.10	
1367.50	1.10	
1370.00	1.11	
1372.50	1.11	
1375.00	1.12	
1377.50	1.12	
1380.00	1.12	
1382.50	1.13	
1385.00	1.13	
1387.50	1.14	
1390.00	1.14	
1392.50	1.15	
1395.00	1.15	
1397.50	1.16	
1400.00	1.16	
1402.50	1.16	
1405.00	1.17	
1407.50	1.17	
1410.00	1.18	
1412.50	1.18	
1415.00	1.19	
1417.50	1.19	
1420.00	1.20	
1422.50	1.20	
1425.00	1.20	
1427.50	1.21	
1430.00	1.21	
1432.50	1.22	
1435.00	1.22	
1437.50	1.23	
1440.00	1.23	
1442.50	1.24	
1445.00	1.24	
1447.50	1.25	
1450.00	1.25	
1452.50	1.25	
1455.00	1.26	
1457.50	1.26	
1460.00	1.27	
1462.50	1.27	
1465.00	1.28	
1467.50	1.28	
1470.00	1.29	
1472.50	1.29	
1475.00	1.30	
1477.50	1.30	
1480.00	1.31	
1482.50	1.31	
1485.00	1.32	
1487.50	1.32	
1490.00	1.33	
1492.50	1.33	
1495.00	1.34	
1497.50	1.34	
1500.00	1.35	
1502.50	1.35	
1505.00	1.36	
1507.50	1.36	
1510.00	1.37	
1512.50	1.37	
1515.00	1.38	
1517.50	1.38	
1520.00	1.39	
1522.50	1.39	
1525.00	1.40	
1527.50	1.40	
1530.00	1.41	
1532.50	1.41	
1535.00	1.42	
1537.50	1.42	
1540.00	1.43	
1542.50	1.43	
1545.00	1.44	
1547.50	1.44	
1550.00	1.45	
1552.50	1.45	
1555.00	1.46	
1557.50	1.46	
1560.00	1.47	
1562.50	1.47	
1565.00	1.48	
1567.50	1.48	
1570.00	1.49	
1572.50	1.49	
1575.00	1.50	
1577.50	1.50	
1580.00	1.51	
1582.50	1.51	
1585.00	1.52	
1587.50	1.52	
1590.00	1.53	
1592.50	1.53	
1595.00	1.54	
1597.50	1.54	
1600.00	1.55	
1602.50	1.55	
1605.00	1.56	
1607.50	1.56	
1610.00	1.57	
1612.50	1.57	
1615.00	1.58	
1617.50	1.58	
1620.00	1.59	
1622.50	1.59	
1625.00	1.60	
1627.50	1.60	
1630.00	1.61	
1632.50	1.62	
1635.00	1.62	
1637.50	1.63	
1640.00	1.63	
1642.50	1.64	
1645.00	1.64	
1647.50	1.65	
1650.00	1.65	
1652.50	1.66	
1655.00	1.66	
1657.50	1.67	
1660.00	1.67	
1662.50	1.68	
1665.00	1.68	
1667.50	1.69	
1670.00	1.69	
1672.50	1.70	
1675.00	1.70	
1677.50	1.70	
1680.00	1.71	
1682.50	1.71	
1685.00	1.72	
1687.50	1.72	
1690.00	1.73	
1692.50	1.73	
1695.00	1.74	
1697.50	1.74	
1700.00	1.75	
1702.50	1.75	
1705.00	1.76	
1707.50	1.76	
1710.00	1.77	
1712.50	1.77	
1715.00	1.78	
1717.50	1.78	
1720.00	1.78	
1722.50	1.79	
1725.00	1.79	
1727.50	1.80	
1730.00	1.80	
1732.50	1.81	
1735.00	1.81	
1737.50	1.82	
1740.00	1.82	
1742.50	1.82	
1745.00	1.83	
1747.50	1.83	
1750.00	1.84	
1752.50	1.84	
1755.00	1.84	
1757.50	1.85	
1760.00	1.85	
1762.50	1.86	
1765.00	1.86	
1767.50	1.86	
1770.00	1.87	
1772.50	1.87	
1775.00	1.88	
1777.50	1.88	
1780.00	1.88	
1782.50	1.89	
1785.00	1.89	
1787.50	1.89	
1790.00	1.90	
1792.50	1.90	
1795.00	1.90	
1797.50	1.91	
1800.00	1.91	
1802.50	1.91	
1805.00	1.92	
1807.50	1.92	
1810.00	1.92	
1812.50	1.93	
1815.00	1.93	
1817.50	1.93	
1820.00	1.93	
1822.50	1.94	
1825.00	1.94	
1827.50	1.94	
1830.00	1.94	
1832.50	1.95	
1835.00	1.95	
1837.50	1.95	
1840.00	1.95	
1842.50	1.96	
1845.00	1.96	
1847.50	1.96	
1850.00	1.96	
1852.50	1.97	
1855.00	1.97	
1857.50	1.97	
1860.00	1.97	
1862.50	1.97	
1865.00	1.97	
1867.50	1.98	
1870.00	1.98	
1872.50	1.98	
1875.00	1.98	
1877.50	1.98	
1880.00	1.98	
1882.50	1.99	
1885.00	1.99	
1887.50	1.99	
1890.00	1.99	
1892.50	1.99	
1895.00	1.99	
1897.50	1.99	
1900.00	1.99	
1902.50	1.99	
1905.00	2.00	
1907.50	2.00	
1910.00	2.00	
1912.50	2.00	
1915.00	2.00	
1917.50	2.00	
1920.00	2.00	
1922.50	2.00	
1925.00	2.00	
1927.50	2.00	
1930.00	2.00	
1932.50	2.00	
1935.00	2.00	
1937.50	2.00	
1940.00	2.00	
1942.50	2.00	
1945.00	2.00	
1947.50	2.00	
1950.00	2.00	
1952.50	2.00	
1955.00	2.00	
1957.50	2.00	
1960.00	2.00	
1962.50	2.00	
1965.00	2.00	
1967.50	2.00	
1970.00	1.99	
1972.50	1.99	
1975.00	1.99	
1977.50	1.99	
1980.00	1.99	
1982.50	1.99	
1985.00	1.99	
1987.50	1.99	
1990.00	1.99	
1992.50	1.99	
1995.00	1.98	
1997.50	1.98	
2000.00	1.98	
2002.50	1.98	
2005.00	1.98	
2007.50	1.98	
2010.00	1.98	
2012.50	1.97	
2015.00	1.97	
2017.50	1.97	
2020.00	1.97	
2022.50	1.97	
2025.00	1.96	
2027.50	1.96	
2030.00	1.96	
2032.50	1.96	
2035.00	1.96	
2037.50	1.95	
2040.00	1.95	
2042.50	1.95	
2045.00	1.95	
2047.50	1.95	
2050.00	1.94	
2052.50	1.94	
2055.00	1.94	
2057.50	1.94	
2060.00	1.93	
2062.50	1.93	
2065.00	1.93	
2067.50	1.93	
2070.00	1.92	
2072.50	1.92	
2075.00	1.92	
2077.50	1.92	
2080.00	1.91	
2082.50	1.91	
2085.00	1.91	
2087.50	1.90	
2090.00	1.90	
2092.50	1.90	
2095.00	1.90	
2097.50	1.89	
2100.00	1.89	
2102.50	1.89	
2105.00	1.88	
2107.50	1.88	
2110.00	1.88	
2112.50	1.87	
2115.00	1.87	
2117.50	1.87	
2120.00	1.87	
2122.50	1.86	
2125.00	1.86	
2127.50	1.86	
2130.00	1.85	
2132.50	1.85	
2135.00	1.85	
2137.50	1.84	
2140.00	1.84	
2142.50	1.84	
2145.00	1.83	
2147.50	1.83	
2150.00	1.83	
2152.50	1.82	
2155.00	1.82	
2157.50	1.82	
2160.00	1.81	
2162.50	1.81	
2165.00	1.81	
2167.50	1.80	
2170.00	1.80	
2172.50	1.80	
2175.00	1.79	
2177.50	1.79	
2180.00	1.78	
2182.50	1.78	
2185.00	1.78	
2187.50	1.77	
2190.00	1.77	
2192.50	1.77	
2195.00	1.76	
2197.50	1.76	
2200.00	1.76	
2202.50	1.75	
2205.00	1.75	
2207.50	1.75	
2210.00	1.74	
2212.50	1.74	
2215.00	1.73	
2217.50	1.73	
2220.00	1.73	
2222.50	1.72	
2225.00	1.72	
2227.50	1.72	
2230.00	1.71	
2232.50	1.71	
2235.00	1.71	
2237.50	1.70	
2240.00	1.70	
2242.50	1.69	
2245.00	1.69	
2247.50	1.69	
2250.00	1.68	
2252.50	1.68	
2255.00	1.68	
2257.50	1.67	
2260.00	1.67	
2262.50	1.66	
2265.00	1.66	
2267.50	1.66	
2270.00	1.65	
2272.50	1.65	
2275.00	1.65	
2277.50	1.64	
2280.00	1.64	
2282.50	1.64	
2285.00	1.63	
2287.50	1.63	
2290.00	1.62	
2292.50	1.62	
2295.00	1.62	
2297.50	1.61	
2300.00	1.61	
2302.50	1.61	
2305.00	1.60	
2307.50	1.60	
2310.00	1.60	
2312.50	1.59	
2315.00	1.59	
2317.50	1.59	
2320.00	1.58	
2322.50	1.58	
2325.00	1.57	
2327.50	1.57	
2330.00	1.57	
2332.50	1.56	
2335.00	1.56	
2337.50	1.56	
2340.00	1.55	
2342.50	1.55	
2345.00	1.55	
2347.50	1.54	
2350.00	1.54	
2352.50	1.54	
2355.00	1.53	
2357.50	1.53	
2360.00	1.53	
2362.50	1.52	
2365.00	1.52	
2367.50	1.52	
2370.00	1.51	
2372.50	1.51	
2375.00	1.50	
2377.50	1.50	
2380.00	1.50	
2382.50	1.49	
2385.00	1.49	
2387.50	1.49	
2390.00	1.48	
2392.50	1.48	
2395.00	1.48	
2397.50	1.47	
2400.00	1.47	
2402.50	1.47	
2405.00	1.46	
2407.50	1.46	
2410.00	1.46	
2412.50	1.45	
2415.00	1.45	
2417.50	1.45	
2420.00	1.44	
2422.50	1.44	
2425.00	1.44	
2427.50	1.43	
2430.00	1.43	
2432.50	1.43	
2435.00	1.43	
2437.50	1.42	
2440.00	1.42	
2442.50	1.42	
2445.00	1.41	
2447.50	1.41	
2450.00	1.41	
2452.50	1.40	
2455.00	1.40	
2457.50	1.40	
2460.00	1.39	
2462.50	1.39	
2465.00	1.39	
2467.50	1.38	
2470.00	1.38	
2472.50	1.38	
2475.00	1.38	
2477.50	1.37	
2480.00	1.37	
2482.50	1.37	
2485.00	1.36	
2487.50	1.36	
2490.00	1.36	
2492.50	1.35	
2495.00	1.35	
2497.50	1.35	
2500.00	1.35	
2502.50	1.34	
2505.00	1.34	
2507.50	1.34	
2510.00	1.33	
2512.50	1.33	
2515.00	1.33	
2517.50	1.33	
2520.00	1.32	
2522.50	1.32	
2525.00	1.32	
2527.50	1.31	
2530.00	1.31	
2532.50	1.31	
2535.00	1.31	
2537.50	1.30	
2540.00	1.30	
2542.50	1.30	
2545.00	1.29	
2547.50	1.29	
2550.00	1.29	
2552.50	1.29	
2555.00	1.28	
2557.50	1.28	
2560.00	1.28	
2562.50	1.27	
2565.00	1.27	
2567.50	1.27	
2570.00	1.27	
2572.50	1.26	
2575.00	1.26	
2577.50	1.26	
2580.00	1.26	
2582.50	1.25	
2585.00	1.25	
2587.50	1.25	
2590.00	1.25	
2592.50	1.24	
2595.00	1.24	
2597.50	1.24	
2600.00	1.24	
2602.50	1.23	
2605.00	1.23	
2607.50	1.23	
2610.00	1.23	
2612.50	1.22	
2615.00	1.22	
2617.50	1.22	
2620.00	1.22	
2622.50	1.21	
2625.00	1.21	
2627.50	1.21	
2630.00	1.21	
2632.50	1.20	
2635.00	1.20	
2637.50	1.20	
2640.00	1.20	
2642.50	1.19	
2645.00	1.19	
2647.50	1.19	
2650.00	1.19	
2652.50	1.18	
2655.00	1.18	
2657.50	1.18	
2660.00	1.18	
2662.50	1.17	
2665.00	1.17	
2667.50	1.17	
2670.00	1.17	
2672.50	1.16	
2675.00	1.16	
2677.50	1.16	
2680.00	1.16	
2682.50	1.16	
2685.00	1.15	
2687.50	1.15	
2690.00	1.15	
2692.50	1.15	
2695.00	1.14	
2697.50	1.14	
2700.00	1.14	
2702.50	1.14	
2705.00	1.14	
2707.50	1.13	
2710.00	1.13	
2712.50	1.13	
2715.00	1.13	
2717.50	1.12	
2720.00	1.12	
2722.50	1.12	
2725.00	1.12	
2727.50	1.12	
2730.00	1.11	
2732.50	1.11	
2735.00	1.11	
2737.50	1.11	
2740.00	1.11	
2742.50	1.10	
2745.00	1.10	
2747.50	1.10	
2750.00	1.10	
2752.50	1.09	
2755.00	1.09	
2757.50	1.09	
2760.00	1.09	
2762.50	1.09	
2765.00	1.08	
2767.50	1.08	
2770.00	1.08	
2772.50	1.08	
2775.00	1.08	
2777.50	1.07	
2780.00	1.07	
2782.50	1.07	
2785.00	1.07	
2787.50	1.07	
2790.00	1.06	
2792.50	1.06	
2795.00	1.06	
2797.50	1.06	
2800.00	1.06	
2802.50	1.06	
2805.00	1.05	
2807.50	1.05	
2810.00	1.05	
2812.50	1.05	
2815.00	1.05	
2817.50	1.04	
2820.00	1.04	
2822.50	1.04	
2825.00	1.04	
2827.50	1.04	
2830.00	1.03	
2832.50	1.03	
2835.00	1.03	
2837.50	1.03	
2840.00	1.03	
2842.50	1.03	
2845.00	1.02	
2847.50	1.02	
2850.00	1.02	
2852.50	1.02	
2855.00	1.02	
2857.50	1.01	
2860.00	1.01	
2862.50	1.01	
2865.00	1.01	
2867.50	1.01	
2870.00	1.01	
2872.50	1.00	
2875.00	1.00	
2877.50	1.00	
2880.00	1.00	
2882.50	1.00	
2885.00	1.00	
2887.50	0.99	
2890.00	0.99	
2892.50	0.99	
2895.00	0.99	
2897.50	0.99	
2900.00	0.99	
2902.50	0.98	
2905.00	0.98	
2907.50	0.98	
2910.00	0.98	
2912.50	0.98	
2915.00	0.98	
2917.50	0.97	
2920.00	0.97	
2922.50	0.97	
2925.00	0.97	
2927.50	0.97	
2930.00	0.97	
2932.50	0.96	
2935.00	0.96	
2937.50	0.96	
2940.00	0.96	
2942.50	0.96	
2945.00	0.96	
2947.50	0.95	
2950.00	0.95	
2952.50	0.95	
2955.00	0.95	
2957.50	0.95	
2960.00	0.95	
2962.50	0.94	
2965.00	0.94	
2967.50	0.94	
2970.00	0.94	
2972.50	0.94	
2975.00	0.94	
2977.50	0.94	
2980.00	0.93	
2982.50	0.93	
2985.00	0.93	
2987.50	0.93	
2990.00	0.93	
2992.50	0.93	
2995.00	0.93	
2997.50	0.92	
3000.00	0.92	
3002.50	0.92	
3005.00	0.92	
3007.50	0.92	
3010.00	0.92	
3012.50	0.91	
3015.00	0.91	
3017.50	0.91	
3020.00	0.91	
3022.50	0.91	
3025.00	0.91	
3027.50	0.91	
3030.00	0.90	
3032.50	0.90	
3035.00	0.90	
3037.50	0.90	
3040.00	0.90	
3042.50	0.90	
3045.00	0.90	
3047.50	0.90	
3050.00	0.89	
3052.50	0.89	
3055.00	0.89	
3057.50	0.89	
3060.00	0.89	
3062.50	0.89	
3065.00	0.89	
3067.50	0.88	
3070.00	0.88	
3072.50	0.88	
3075.00	0.88	
3077.50	0.88	
3080.00	0.88	
3082.50	0.88	
3085.00	0.87	
3087.50	0.87	
3090.00	0.87	
3092.50	0.87	
3095.00	0.87	
3097.50	0.87	
3100.00	0.87	
3102.50	0.87	
3105.00	0.86	
3107.50	0.86	
3110.00	0.86	
3112.50	0.86	
3115.00	0.86	
3117.50	0.86	
3120.00	0.86	
3122.50	0.86	
3125.00	0.85	
3127.50	0.85	
3130.00	0.85	
3132.50	0.85	
3135.00	0.85	
3137.50	0.85	
3140.00	0.85	
3142.50	0.85	
3145.00	0.84	
3147.50	0.84	
3150.00	0.84	
3152.50	0.84	
3155.00	0.84	
3157.50	0.84	
3160.00	0.84	
3162.50	0.84	
3165.00	0.83	
3167.50	0.83	
3170.00	0.83	
3172.50	0.83	
3175.00	0.83	
3177.50	0.83	
3180.00	0.83	
3182.50	0.83	
3185.00	0.83	
3187.50	0.82	
3190.00	0.82	
3192.50	0.82	
3195.00	0.82	
3197.50	0.82	
3200.00	0.82	
3202.50	0.82	
3205.00	0.82	
3207.50	0.81	
3210.00	0.81	
3212.50	0.81	
3215.00	0.81	
3217.50	0.81	
3220.00	0.81	
3222.50	0.81	
3225.00	0.81	
3227.50	0.81	
3230.00	0.80	
3232.50	0.80	
3235.00	0.80	
3237.50	0.80	
3240.00	0.80	
3242.50	0.80	
3245.00	0.80	
3247.50	0.80	
3250.00	0.80	
3252.50	0.79	
3255.00	0.79	
3257.50	0.79	
3260.00	0.79	
3262.50	0.79	
3265.00	0.79	
3267.50	0.79	
3270.00	0.79	
3272.50	0.79	
3275.00	0.79	
3277.50	0.78	
3280.00	0.78	
3282.50	0.78	
3285.00	0.78	
3287.50	0.78	
3290.00	0.78	
3292.50	0.78	
3295.00	0.78	
3297.50	0.78	
3300.00	0.77	
3302.50	0.77	
3305.00	0.77	
3307.50	0.77	
3310.00	0.77	
3312.50	0.77	
3315.00	0.77	
3317.50	0.77	
3320.00	0.77	
3322.50	0.77	
3325.00	0.76	
3327.50	0.76	
3330.00	0.76	
3332.50	0.76	
3335.00	0.76	
3337.50	0.76	
3340.00	0.76	
3342.50	0.76	
3345.00	0.76	
3347.50	0.76	
3350.00	0.76	
3352.50	0.75	
3355.00	0.75	
3357.50	0.75	
3360.00	0.75	
3362.50	0.75	
3365.00	0.75	
3367.50	0.75	
3370.00	0.75	
3372.50	0.75	
3375.00	0.75	
3377.50	0.74	
3380.00	0.74	
3382.50	0.74	
3385.00	0.74	
3387.50	0.74	
3390.00	0.74	
3392.50	0.74	
3395.00	0.74	
3397.50	0.74	
3400.00	0.74	
3402.50	0.74	
3405.00	0.73	
3407.50	0.73	
3410.00	0.73	
3412.50	0.73	
3415.00	0.73	
3417.50	0.73	
3420.00	0.73	
3422.50	0.73	
3425.00	0.73	
3427.50	0.73	
3430.00	0.73	
3432.50	0.72	
3435.00	0.72	
3437.50	0.72	
3440.00	0.72	
3442.50	0.72	
3445.00	0.72	
3447.50	0.72	
3450.00	0.72	
3452.50	0.72	
3455.00	0.72	
3457.50	0.72	
3460.00	0.71	
3462.50	0.71	
3465.00	0.71	
3467.50	0.71	
3470.00	0.71	
3472.50	0.71	
3475.00	0.71	
3477.50	0.71	
3480.00	0.71	
3482.50	0.71	
3485.00	0.71	
3487.50	0.71	
3490.00	0.70	
3492.50	0.70	
3495.00	0.70	
3497.50	0.70	
3500.00	0.70	
3502.50	0.70	
3505.00	0.70	
3507.50	0.70	
3510.00	0.70	
3512.50	0.70	
3515.00	0.70	
3517.50	0.70	
3520.00	0.69	
3522.50	0.69	
3525.00	0.69	
3527.50	0.69	
3530.00	0.69	
3532.50	0.69	
3535.00	0.69	
3537.50	0.69	
3540.00	0.69	
3542.50	0.69	
3545.00	0.69	
3547.50	0.69	
3550.00	0.69	
3552.50	0.68	
3555.00	0.68	
3557.50	0.68	
3560.00	0.68	
3562.50	0.68	
3565.00	0.68	
3567.50	0.68	
3570.00	0.68	
3572.50	0.68	
3575.00	0.68	
3577.50	0.68	
3580.00	0.68	
3582.50	0.68	
3585.00	0.67	
3587.50	0.67	
3590.00	0.67	
3592.50	0.67	
3595.00	0.67	
3597.50	0.67	
3600.00	0.67	
3602.50	0.67	
3605.00	0.67	
3607.50	0.67	
3610.00	0.67	
3612.50	0.67	
3615.00	0.67	
3617.50	0.66	
3620.00	0.66	
3622.50	0.66	
3625.00	0.66	
3627.50	0.66	
3630.00	0.66	
3632.50	0.66	
3635.00	0.66	
3637.50	0.66	
3640.00	0.66	
3642.50	0.66	
3645.00	0.66	
3647.50	0.66	
3650.00	0.66	
3652.50	0.65	
3655.00	0.65	
3657.50	0.65	
3660.00	0.65	
3662.50	0.65	
3665.00	0.65	
3667.50	0.65	
3670.00	0.65	
3672.50	0.65	
3675.00	0.65	
3677.50	0.65	
3680.00	0.65	
3682.50	0.65	
3685.00	0.65	
3687.50	0.64	
3690.00	0.64	
3692.50	0.64	
3695.00	0.64	
3697.50	0.64	
3700.00	0.64	
3702.50	0.64	
3705.00	0.64	
3707.50	0.64	
3710.00	0.64	
3712.50	0.64	
3715.00	0.64	
3717.50	0.64	
3720.00	0.64	
3722.50	0.64	
3725.00	0.63	
3727.50	0.63	
3730.00	0.63	
3732.50	0.63	
3735.00	0.63	
3737.50	0.63	
3740.00	0.63	
3742.50	0.63	
3745.00	0.63	
3747.50	0.63	
3750.00	0.63	
3752.50	0.63	
3755.00	0.63	
3757.50	0.63	
3760.00	0.63	
3762.50	0.62	
3765.00	0.62	
3767.50	0.62	
3770.00	0.62	
3772.50	0.62	
3775.00	0.62	
3777.50	0.62	
3780.00	0.62	
3782.50	0.62	
3785.00	0.62	
3787.50	0.62	
3790.00	0.62	
3792.50	0.62	
3795.00	0.62	
3797.50	0.62	
3800.00	0.62	
3802.50	0.61	
3805.00	0.61	
3807.50	0.61	
3810.00	0.61	
3812.50	0.61	
3815.00	0.61	
3817.50	0.61	
3820.00	0.61	
3822.50	0.61	
3825.00	0.61	
3827.50	0.61	
3830.00	0.61	
3832.50	0.61	
3835.00	0.61	
3837.50	0.61	
3840.00	0.61	
3842.50	0.60	
3845.00	0.60	
3847.50	0.60	
3850.00	0.60	
3852.50	0.60	
3855.00	0.60	
3857.50	0.60	
3860.00	0.60	
3862.50	0.60	
3865.00	0.60	
3867.50	0.60	
3870.00	0.60	
3872.50	0.60	
3875.00	0.60	
3877.50	0.60	
3880.00	0.60	
3882.50	0.60	
3885.00	0.59	
3887.50	0.59	
3890.00	0.59	
3892.50	0.59	
3895.00	0.59	
3897.50	0.59	
3900.00	0.59	
3902.50	0.59	
3905.00	0.59	
3907.50	0.59	
3910.00	0.59	
3912.50	0.59	
3915.00	0.59	
3917.50	0.59	
3920.00	0.59	
3922.50	0.59	
3925.00	0.59	
3927.50	0.59	
3930.00	0.58	
3932.50	0.58	
3935.00	0.58	
3937.50	0.58	
3940.00	0.58	
3942.50	0.58	
3945.00	0.58	
3947.50	0.58	
3950.00	0.58	
3952.50	0.58	
3955.00	0.58	
3957.50	0.58	
3960.00	0.58	
3962.50	0.58	
3965.00	0.58	
3967.50	0.58	
3970.00	0.58	
3972.50	0.58	
3975.00	0.57	
3977.50	0.57	
3980.00	0.57	
3982.50	0.57	
3985.00	0.57	
3987.50	0.57	
3990.00	0.57	
3992.50	0.57	
3995.00	0.57	
3997.50	0.57	
4000.00	0.57	
4002.50	0.57	
4005.00	0.57	
4007.50	0.57	
4010.00	0.57	
4012.50	0.57	
4015.00	0.57	
4017.50	0.57	
4020.00	0.57	
4022.50	0.56	
4025.00	0.56	
4027.50	0.56	
4030.00	0.56	
4032.50	0.56	
4035.00	0.56	
4037.50	0.56	
4040.00	0.56	
4042.50	0.56	
4045.00	0.56	
4047.50	0.56	
4050.00	0.56	
4052.50	0.56	
4055.00	0.56	
4057.50	0.56	
4060.00	0.56	
4062.50	0.56	
4065.00	0.56	
4067.50	0.56	
4070.00	0.55	
4072.50	0.55	
4075.00	0.55	
4077.50	0.55	
4080.00	0.55	
4082.50	0.55	
4085.00	0.55	
4087.50	0.55	
4090.00	0.55	
4092.50	0.55	
4095.00	0.55	
4097.50	0.55	
4100.00	0.55	
4102.50	0.55	
4105.00	0.55	
4107.50	0.55	
4110.00	0.55	
4112.50	0.55	
4115.00	0.55	
4117.50	0.55	
4120.00	0.55	
4122.50	0.54	
4125.00	0.54	
4127.50	0.54	
4130.00	0.54	
4132.50	0.54	
4135.00	0.54	
4137.50	0.54	
4140.00	0.54	
4142.50	0.54	
4145.00	0.54	
4147.50	0.54	
4150.00	0.54	
4152.50	0.54	
4155.00	0.54	
4157.50	0.54	
4160.00	0.54	
4162.50	0.54	
4165.00	0.54	
4167.50	0.54	
4170.00	0.54	
4172.50	0.54	
4175.00	0.53	
4177.50	0.53	
4180.00	0.53	
4182.50	0.53	
4185.00	0.53	
4187.50	0.53	
4190.00	0.53	
4192.50	0.53	
4195.00	0.53	
4197.50	0.53	
4200.00	0.53	
4202.50	0.53	
4205.00	0.53	
4207.50	0.53	
4210.00	0.53	
4212.50	0.53	
4215.00	0.53	
4217.50	0.53	
4220.00	0.53	
4222.50	0.53	
4225.00	0.53	
4227.50	0.53	
4230.00	0.52	
4232.50	0.52	
4235.00	0.52	
4237.50	0.52	
4240.00	0.52	
4242.50	0.52	
4245.00	0.52	
4247.50	0.52	
4250.00	0.52	
4252.50	0.52	
4255.00	0.52	
4257.50	0.52	
4260.00	0.52	
4262.50	0.52	
4265.00	0.52	
4267.50	0.52	
4270.00	0.52	
4272.50	0.52	
4275.00	0.52	
4277.50	0.52	
4280.00	0.52	
4282.50	0.52	
4285.00	0.52	
4287.50	0.51	
4290.00	0.51	
4292.50	0.51	
4295.00	0.51	
4297.50	0.51	
4300.00	0.51	
4302.50	0.51	
4305.00	0.51	
4307.50	0.51	
4310.00	0.51	
4312.50	0.51	
4315.00	0.51	
4317.50	0.51	
4320.00	0.51	
4322.50	0.51	
4325.00	0.51	
4327.50	0.51	
4330.00	0.51	
4332.50	0.51	
4335.00	0.51	
4337.50	0.51	
4340.00	0.51	
4342.50	0.51	
4345.00	0.51	
4347.50	0.51	
4350.00	0.50	
4352.50	0.50	
4355.00	0.50	
4357.50	0.50	
4360.00	0.50	
4362.50	0.50	
4365.00	0.50	
4367.50	0.50	
4370.00	0.50	
4372.50	0.50	
4375.00	0.50	
4377.50	0.50	
4380.00	0.50	
4382.50	0.50	
4385.00	0.50	
4387.50	0.50	
4390.00	0.50	
4392.50	0.50	
4395.00	0.50	
4397.50	0.50	
4400.00	0.50	
4402.50	0.50	
4405.00	0.50	
4407.50	0.50	
4410.00	0.50	
4412.50	0.49	
4415.00	0.49	
4417.50	0.49	
4420.00	0.49	
4422.50	0.49	
4425.00	0.49	
4427.50	0.49	
4430.00	0.49	
4432.50	0.49	
4435.00	0.49	
4437.50	0.49	
4440.00	0.49	
4442.50	0.49	
4445.00	0.49	
4447.50	0.49	
4450.00	0.49	
4452.50	0.49	
4455.00	0.49	
4457.50	0.49	
4460.00	0.49	
4462.50	0.49	
4465.00	0.49	
4467.50	0.49	
4470.00	0.49	
4472.50	0.49	
4475.00	0.49	
4477.50	0.48	
4480.00	0.48	
4482.50	0.48	
4485.00	0.48	
4487.50	0.48	
4490.00	0.48	
4492.50	0.48	
4495.00	0.48	
4497.50	0.48	
4500.00	0.48	
4502.50	0.48	
4505.00	0.48	
4507.50	0.48	
4510.00	0.48	
4512.50	0.48	
4515.00	0.48	
4517.50	0.48	
4520.00	0.48	
4522.50	0.48	
4525.00	0.48	
4527.50	0.48	
4530.00	0.48	
4532.50	0.48	
4535.00	0.48	
4537.50	0.48	
4540.00	0.48	
4542.50	0.48	
4545.00	0.47	
4547.50	0.47	
4550.00	0.47	
4552.50	0.47	
4555.00	0.47	
4557.50	0.47	
4560.00	0.47	
4562.50	0.47	
4565.00	0.47	
4567.50	0.47	
4570.00	0.47	
4572.50	0.47	
4575.00	0.47	
4577.50	0.47	
4580.00	0.47	
4582.50	0.47	
4585.00	0.47	
4587.50	0.47	
4590.00	0.47	
4592.50	0.47	
4595.00	0.47	
4597.50	0.47	
4600.00	0.47	
4602.50	0.47	
4605.00	0.47	
4607.50	0.47	
4610.00	0.47	
4612.50	0.47	
4615.00	0.47	
4617.50	0.46	
4620.00	0.46	
4622.50	0.46	
4625.00	0.46	
4627.50	0.46	
4630.00	0.46	
4632.50	0.46	
4635.00	0.46	
4637.50	0.46	
4640.00	0.46	
4642.50	0.46	
4645.00	0.46	
4647.50	0.46	
4650.00	0.46	
4652.50	0.46	
4655.00	0.46	
4657.50	0.46	
4660.00	0.46	
4662.50	0.46	
4665.00	0.46	
4667.50	0.46	
4670.00	0.46	
4672.50	0.46	
4675.00	0.46	
4677.50	0.46	
4680.00	0.46	
4682.50	0.46	
4685.00	0.46	
4687.50	0.46	
4690.00	0.46	
4692.50	0.45	
4695.00	0.45	
4697.50	0.45	
4700.00	0.45	
4702.50	0.45	
4705.00	0.45	
4707.50	0.45	
4710.00	0.45	
4712.50	0.45	
4715.00	0.45	
4717.50	0.45	
4720.00	0.45	
4722.50	0.45	
4725.00	0.45	
4727.50	0.45	
4730.00	0.45	
4732.50	0.45	
4735.00	0.45	
4737.50	0.45	
4740.00	0.45	
4742.50	0.45	
4745.00	0.45	
4747.50	0.45	
4750.00	0.45	
4752.50	0.45	
4755.00	0.45	
4757.50	0.45	
4760.00	0.45	
4762.50	0.45	
4765.00	0.45	
4767.50	0.45	
4770.00	0.45	
4772.50	0.44	
4775.00	0.44	
4777.50	0.44	
4780.00	0.44	
4782.50	0.44	
4785.00	0.44	
4787.50	0.44	
4790.00	0.44	
4792.50	0.44	
4795.00	0.44	
4797.50	0.44	
4800.00	0.44	
4802.50	0.44	
4805.00	0.44	
4807.50	0.44	
4810.00	0.44	
4812.50	0.44	
4815.00	0.44	
4817.50	0.44	
4820.00	0.44	
4822.50	0.44	
4825.00	0.44	
4827.50	0.44	
4830.00	0.44	
4832.50	0.44	
4835.00	0.44	
4837.50	0.44	
4840.00	0.44	
4842.50	0.44	
4845.00	0.44	
4847.50	0.44	
4850.00	0.44	
4852.50	0.44	
4855.00	0.43	
4857.50	0.43	
4860.00	0.43	
4862.50	0.43	
4865.00	0.43	
4867.50	0.43	
4870.00	0.43	
4872.50	0.43	
4875.00	0.43	
4877.50	0.43	
4880.00	0.43	
4882.50	0.43	
4885.00	0.43	
4887.50	0.43	
4890.00	0.43	
4892.50	0.43	
4895.00	0.43	
4897.50	0.43	
4900.00	0.43	
4902.50	0.43	
4905.00	0.43	
4907.50	0.43	
4910.00	0.43	
4912.50	0.43	
4915.00	0.43	
4917.50	0.43	
4920.00	0.43	
4922.50	0.43	
4925.00	0.43	
4927.50	0.43	
4930.00	0.43	
4932.50	0.43	
4935.00	0.43	
4937.50	0.43	
4940.00	0.43	
4942.50	0.42	
4945.00	0.42	
4947.50	0.42	
4950.00	0.42	
4952.50	0.42	
4955.00	0.42	
4957.50	0.42	
4960.00	0.42	
4962.50	0.42	
4965.00	0.42	
4967.50	0.42	
4970.00	0.42	
4972.50	0.42	
4975.00	0.42	
4977.50	0.42	
4980.00	0.42	
4982.50	0.42	
4985.00	0.42	
4987.50	0.42	
4990.00	0.42	
4992.50	0.42	
4995.00	0.42	
4997.50	0.42	
5000.00	0.42	
5002.50	0.42	
5005.00	0.42	
5007.50	0.42	
5010.00	0.42	
5012.50	0.42	
5015.00	0.42	
5017.50	0.42	
5020.00	0.42	
5022.50	0.42	
5025.00	0.42	
5027.50	0.42	
5030.00	0.42	
5032.50	0.42	
5035.00	0.41	
5037.50	0.41	
5040.00	0.41	
5042.50	0.41	
5045.00	0.41	
5047.50	0.41	
5050.00	0.41	
5052.50	0.41	
5055.00	0.41	
5057.50	0.41	
5060.00	0.41	
5062.50	0.41	
5065.00	0.41	
5067.50	0.41	
5070.00	0.41	
5072.50	0.41	
5075.00	0.41	
5077.50	0.41	
5080.00	0.41	
5082.50	0.41	
5085.00	0.41	
5087.50	0.41	
5090.00	0.41	
5092.50	0.41	
5095.00	0.41	
5097.50	0.41	
5100.00	0.41	
5102.50	0.41	
5105.00	0.41	
5107.50	0.41	
5110.00	0.41	
5112.50	0.41	
5115.00	0.41	
5117.50	0.41	
5120.00	0.41	
5122.50	0.41	
5125.00	0.41	
5127.50	0.41	
5130.00	0.40	
5132.50	0.40	
5135.00	0.40	
5137.50	0.40	
5140.00	0.40	
5142.50	0.40	
5145.00	0.40	
5147.50	0.40	
5150.00	0.40	
5152.50	0.40	
5155.00	0.40	
5157.50	0.40	
5160.00	0.40	
5162.50	0.40	
5165.00	0.40	
5167.50	0.40	
5170.00	0.40	
5172.50	0.40	
5175.00	0.40	
5177.50	0.40	
5180.00	0.40	
5182.50	0.40	
5185.00	0.40	
5187.50	0.40	
5190.00	0.40	
5192.50	0.40	
5195.00	0.40	
5197.50	0.40	
5200.00	0.40	
5202.50	0.40	
5205.00	0.40	
5207.50	0.40	
5210.00	0.40	
5212.50	0.40	
5215.00	0.40	
5217.50	0.40	
5220.00	0.40	
5222.50	0.40	
5225.00	0.40	
5227.50	0.40	
5230.00	0.40	
5232.50	0.39	
5235.00	0.39	
5237.50	0.39	
5240.00	0.39	
5242.50	0.39	
5245.00	0.39	
5247.50	0.39	
5250.00	0.39	
5252.50	0.39	
5255.00	0.39	
5257.50	0.39	
5260.00	0.39	
5262.50	0.39	
5265.00	0.39	
5267.50	0.39	
5270.00	0.39	
5272.50	0.39	
5275.00	0.39	
5277.50	0.39	
5280.00	0.39	
5282.50	0.39	
5285.00	0.39	
5287.50	0.39	
5290.00	0.39	
5292.50	0.39	
5295.00	0.39	
5297.50	0.39	
5300.00	0.39	
5302.50	0.39	
5305.00	0.39	
5307.50	0.39	
5310.00	0.39	
5312.50	0.39	
5315.00	0.39	
5317.50	0.39	
5320.00	0.39	
5322.50	0.39	
5325.00	0.39	
5327.50	0.39	
5330.00	0.39	
5332.50	0.39	
5335.00	0.39	
5337.50	0.39	
5340.00	0.38	
5342.50	0.38	
5345.00	0.38	
5347.50	0.38	
5350.00	0.38	
5352.50	0.38	
5355.00	0.38	
5357.50	0.38	
5360.00	0.38	
5362.50	0.38	
5365.00	0.38	
5367.50	0.38	
5370.00	0.38	
5372.50	0.38	
5375.00	0.38	
5377.50	0.38	
5380.00	0.38	
5382.50	0.38	
5385.00	0.38	
5387.50	0.38	
5390.00	0.38	
5392.50	0.38	
5395.00	0.38	
5397.50	0.38	
5400.00	0.38	
5402.50	0.38	
5405.00	0.38	
5407.50	0.38	
5410.00	0.38	
5412.50	0.38	
5415.00	0.38	
5417.50	0.38	
5420.00	0.38	
5422.50	0.38	
5425.00	0.38	
5427.50	0.38	
5430.00	0.38	
5432.50	0.38	
5435.00	0.38	
5437.50	0.38	
5440.00	0.38	
5442.50	0.38	
5445.00	0.38	
5447.50	0.38	
5450.00	0.38	
5452.50	0.37	
5455.00	0.37	
5457.50	0.37	
5460.00	0.37	
5462.50	0.37	
5465.00	0.37	
5467.50	0.37	
5470.00	0.37	
5472.50	0.37	
5475.00	0.37	
5477.50	0.37	
5480.00	0.37	
5482.50	0.37	
5485.00	0.37	
5487.50	0.37	
5490.00	0.37	
5492.50	0.37	
5495.00	0.37	
5497.50	0.37	
5500.00	0.37	
5502.50	0.37	
5505.00	0.37	
5507.50	0.37	
5510.00	0.37	
5512.50	0.37	
5515.00	0.37	
5517.50	0.37	
5520.00	0.37	
5522.50	0.37	
5525.00	0.37	
5527.50	0.37	
5530.00	0.37	
5532.50	0.37	
5535.00	0.37	
5537.50	0.37	
5540.00	0.37	
5542.50	0.37	
5545.00	0.37	
5547.50	0.37	
5550.00	0.37	
5552.50	0.37	
5555.00	0.37	
5557.50	0.37	
5560.00	0.37	
5562.50	0.37	
5565.00	0.37	
5567.50	0.37	
5570.00	0.37	
5572.50	0.36	
5575.00	0.36	
5577.50	0.36	
5580.00	0.36	
5582.50	0.36	
5585.00	0.36	
5587.50	0.36	
5590.00	0.36	
5592.50	0.36	
5595.00	0.36	
5597.50	0.36	
5600.00	0.36	
5602.50	0.36	
5605.00	0.36	
5607.50	0.36	
5610.00	0.36	
5612.50	0.36	
5615.00	0.36	
5617.50	0.36	
5620.00	0.36	
5622.50	0.36	
5625.00	0.36	
5627.50	0.36	
5630.00	0.36	
5632.50	0.36	
5635.00	0.36	
5637.50	0.36	
5640.00	0.36	
5642.50	0.36	
5645.00	0.36	
5647.50	0.36	
5650.00	0.36	
5652.50	0.36	
5655.00	0.36	
5657.50	0.36	
5660.00	0.36	
5662.50	0.36	
5665.00	0.36	
5667.50	0.36	
5670.00	0.36	
5672.50	0.36	
5675.00	0.36	
5677.50	0.36	
5680.00	0.36	
5682.50	0.36	
5685.00	0.36	
5687.50	0.36	
5690.00	0.36	
5692.50	0.36	
5695.00	0.36	
5697.50	0.36	
5700.00	0.36	
5702.50	0.35	
5705.00	0.35	
5707.50	0.35	
5710.00	0.35	
5712.50	0.35	
5715.00	0.35	
5717.50	0.35	
5720.00	0.35	
5722.50	0.35	
5725.00	0.35	
5727.50	0.35	
5730.00	0.35	
5732.50	0.35	
5735.00	0.35	
5737.50	0.35	
5740.00	0.35	
5742.50	0.35	
5745.00	0.35	
5747.50	0.35	
5750.00	0.35	
5752.50	0.35	
5755.00	0.35	
5757.50	0.35	
5760.00	0.35	
5762.50	0.35	
5765.00	0.35	
5767.50	0.35	
5770.00	0.35	
5772.50	0.35	
5775.00	0.35	
5777.50	0.35	
5780.00	0.35	
5782.50	0.35	
5785.00	0.35	
5787.50	0.35	
5790.00	0.35	
5792.50	0.35	
5795.00	0.35	
5797.50	0.35	
5800.00	0.35	
5802.50	0.35	
5805.00	0.35	
5807.50	0.35	
5810.00	0.35	
5812.50	0.35	
5815.00	0.35	
5817.50	0.35	
5820.00	0.35	
5822.50	0.35	
5825.00	0.35	
5827.50	0.35	
5830.00	0.35	
5832.50	0.35	
5835.00	0.35	
5837.50	0.34	
5840.00	0.34	
5842.50	0.34	
5845.00	0.34	
5847.50	0.34	
5850.00	0.34	
5852.50	0.34	
5855.00	0.34	
5857.50	0.34	
5860.00	0.34	
5862.50	0.34	
5865.00	0.34	
5867.50	0.34	
5870.00	0.34	
5872.50	0.34	
5875.00	0.34	
5877.50	0.34	
5880.00	0.34	
5882.50	0.34	
5885.00	0.34	
5887.50	0.34	
5890.00	0.34	
5892.50	0.34	
5895.00	0.34	
5897.50	0.34	
5900.00	0.34	
5902.50	0.34	
5905.00	0.34	
5907.50	0.34	
5910.00	0.34	
5912.50	0.34	
5915.00	0.34	
5917.50	0.34	
5920.00	0.34	
5922.50	0.34	
5925.00	0.34	
5927.50	0.34	
5930.00	0.34	
5932.50	0.34	
5935.00	0.34	
5937.50	0.34	
5940.00	0.34	
5942.50	0.34	
5945.00	0.34	
5947.50	0.34	
5950.00	0.34	
5952.50	0.34	
5955.00	0.34	
5957.50	0.34	
5960.00	0.34	
5962.50	0.34	
5965.00	0.34	
5967.50	0.34	
5970.00	0.34	
5972.50	0.34	
5975.00	0.34	
5977.50	0.34	
5980.00	0.33	
5982.50	0.33	
5985.00	0.33	
5987.50	0.33	
5990.00	0.33	
5992.50	0.33	
5995.00	0.33	
5997.50	0.33	
6000.00	0.33	
